Folder: Mechanics_Apps/Tensile_test

Note: Tensile_test/cfrp_data_sig.txt
0 0.35 0.7 1.05 1.4 1.75 2.1 2.45 2.8 3.15 3.5 3.85 4.2 4.55 4.9 5.25 5.6 5.95 6.3 6.65 7 7.3 7.6 7.85 8.05 8.2 8.35 8.5 8.6 8.7 8.79 8.87 8.95 9.03 9.1 9.16 9.21 9.26 9.3 9.34 9.37

0 0.35 0.7 1.05 1.4 1.75 2.1 2.45 2.8 3.15 3.5 3.85 4.2 4.55 4.9 5.25 5.6 5.95 6.3 6.65 7 7.3 7.6 7.9 8.1 8.3 8.45 8.6 8.75 8.85 8.95 9.04 9.12 9.2 9.27 9.34 9.4 9.46 9.51 9.56 9.6

Note: Tensile_test/cfrp_data_unload_sig.txt
9.16 8.81 8.46 8.11 7.76 7.41 7.06 6.71 6.36 6.01 5.66 5.31 4.96 4.61 4.26 3.91 3.56 3.21 2.86 2.51 2.16 1.81 1.46 1.11 0.76 0.41 0.06 0

Note: Tensile_test/rubber_data_load_sig.txt
0 0.09 0.18 0.27 0.36 0.45 0.54 0.62 0.7 0.78 0.86 0.93 1 1.07 1.13 1.19 1.25 1.3 1.35 1.4 1.45 1.5 1.54 1.58 1.62 1.66 1.7 1.74 1.78 1.81 1.84 1.87 1.9 1.93 1.96 1.98 2 2.02 2.04 2.06 2.08 2.1 2.12 2.14 2.16 2.18 2.2 2.22 2.24 2.255 2.27 2.285 2.3 2.315 2.33 2.345 2.36 2.37 2.385 2.4 2.415 2.43 2.445 2.46 2.475 2.49 2.505 2.52 2.535 2.55 2.565 2.58 2.595 2.61 2.625 2.64 2.655 2.67 2.685 2.7 2.72 2.74 2.76 2.78 2.8 2.82 2.84 2.86 2.88 2.9 2.92 2.94 2.96 2.985 3.01 3.035 3.06 3.085 3.11 3.135 3.16

Note: Tensile_test/rubber_data_sig.txt
0 0.07 0.14 0.21 0.28 0.35 0.42 0.49 0.56 0.62 0.68 0.74 0.8 0.85 0.9 0.95 1 1.05 1.1 1.14 1.18 1.22 1.26 1.3 1.34 1.38 1.42 1.45 1.48 1.51 1.54 1.57 1.6 1.62 1.64 1.66 1.68 1.7 1.72 1.74 1.76 1.78 1.8 1.82 1.84 1.86 1.88 1.9 1.915 1.93 1.945 1.96 1.975 1.99 2.005 2.02 2.035 2.05 2.065 2.08 2.09 2.1 2.11 2.12 2.13 2.14 2.15 2.16 2.17 2.18 2.19 2.2 2.21 2.22 2.23 2.24 2.25 2.26 2.27 2.28 2.29 2.3 2.31 2.32 2.33 2.34 2.35 2.358 2.366 2.374 2.382 2.39 2.398 2.406 2.414 2.422 2.43 2.438 2.446 2.454 2.462 2.47 2.478 2.486 2.494 2.502 2.51 2.52 2.53 2.54 2.555 2.56 2.575 2.59 2.605 2.62 2.635 2.65 2.665 2.68 2.7 2.72 2.74 2.76 2.78 2.8 2.82 2.84 2.86 2.88 2.9 2.93 2.96 2.99 3.02 3.05 3.08 3.11 3.14 3.17 3.2 3.23 3.26 3.3 3.34 3.38 3.42 3.46 3.51 3.56 3.61 3.66 3.71 3.77 3.83 3.89 3.95 4.02 4.09

0 0.07 0.14 0.21 0.28 0.35 0.42 0.49 0.56 0.62 0.68 0.74 0.8 0.85 0.9 0.95 1 1.05 1.1 1.14 1.18 1.22 1.26 1.3 1.34 1.38 1.42 1.455 1.49 1.525 1.56 1.59 1.62 1.65 1.68 1.71 1.74 1.77 1.8 1.83 1.86 1.885 1.91 1.935 1.96 1.985 2.01 2.03 2.05 2.07 2.09 2.11 2.13 2.15 2.165 2.18 2.195 2.21 2.225 2.24 2.255 2.27 2.285 2.3 2.315 2.33 2.345 2.36 2.375 2.39 2.405 2.42 2.435 2.45 2.465 2.48 2.495 2.51 2.525 2.54 2.555 2.57 2.585 2.6 2.615 2.63 2.645 2.66 2.675 2.69 2.705 2.72 2.74 2.76 2.78 2.8 2.82 2.84 2.86 2.88 2.9 2.92 2.94 2.96 2.98 3 3.02 3.04 3.06 3.08 3.1 3.135 3.16 3.185 3.21 3.235 3.26 3.285 3.31 3.34 3.37 3.4 3.43 3.46 3.49 3.52 3.56 3.6 3.64 3.68 3.72 3.76 3.8 3.85 3.9 3.95 4 4.05 4.1 4.15 4.2 4.25 4.3 4.36 4.42 4.48 4.54 4.6 4.67 4.74 4.81 4.88 4.95 5.03 5.11 5.2 5.29 5.38 5.47

Note: Tensile_test/rubber_data_unload_sig.txt
3.16 3.01 2.86 2.72 2.6 2.5 2.42 2.36 2.31 2.26 2.21 2.16 2.12 2.08 2.04 2 1.97 1.94 1.91 1.88 1.85 1.82 1.79 1.77 1.75 1.73 1.71 1.69 1.67 1.65 1.63 1.62 1.61 1.6 1.59 1.58 1.57 1.56 1.55 1.54 1.53 1.52 1.51 1.5 1.49 1.485 1.48 1.475 1.47 1.465 1.46 1.455 1.45 1.445 1.44 1.435 1.43 1.42 1.41 1.4 1.39 1.38 1.37 1.36 1.35 1.335 1.32 1.305 1.29 1.275 1.26 1.245 1.23 1.21 1.19 1.17 1.15 1.12 1.09 1.06 1.03 0.99 0.95 0.91 0.86 0.81 0.76 0.71 0.66 0.6 0.54 0.48 0.42 0.35 0.28 0.21 0.14 0.07 0

Note: Tensile_test/steel_data_sig.txt
0 0.25 0.5 0.75 1 1.25 1.5 1.75 2 2.25 2.5 2.75 3 3.25 3.5 3.75 4 4.25 4.5 4.75 5 4.75 4.5 4.75 4.5 4.75 4.5 4.75 4.5 4.75 4.5 4.65 4.8 4.95 5.08 5.21 5.33 5.44 5.55 5.66 5.75 5.84 5.93 6.01 6.08 6.15 6.22 6.28 6.33 6.38 6.43 6.47 6.51 6.55 6.58 6.61 6.64 6.67 6.7 6.73 6.76 6.79 6.81 6.83 6.85 6.87 6.89 6.91 6.93 6.94 6.96 6.97 6.98 6.99 6.998 7 6.998 6.99 6.985 6.98 6.97 6.96 6.95 6.94 6.93 6.92 6.9 6.88 6.86 6.84 6.82 6.8 6.78 6.76 6.73 6.7 6.67 6.64 6.61 6.58 6.55 6.52 6.49 6.46 6.43 6.39 6.35 6.31 6.27 6.23 6.19 6.15 6.11 6.07 6.02 5.97 5.92 5.87 5.82 5.77 5.72 5.66 5.6 5.54 5.48 5.42 5.35 5.28 5.21 5.14 5.07

0 0.25 0.5 0.75 1 1.25 1.5 1.75 2 2.25 2.5 2.75 3 3.25 3.5 3.75 4 4.25 4.5 4.75 5 4.75 4.5 4.75 4.5 4.75 4.5 4.75 4.5 4.75 4.5 4.65 4.8 4.95 5.08 5.21 5.33 5.44 5.55 5.66 5.75 5.84 5.94 6.02 6.095 6.17 6.24 6.31 6.36 6.42 6.47 6.52 6.57 6.62 6.67 6.71 6.74 6.78 6.82 6.85 6.88 6.91 6.94 6.97 7 7.03 7.06 7.09 7.12 7.15 7.17 7.19 7.21 7.23 7.25 7.27 7.29 7.31 7.32 7.33 7.34 7.35 7.36 7.37 7.38 7.39 7.4 7.41 7.415 7.42 7.425 7.43 7.445 7.46 7.475 7.48 7.5 7.52 7.54 7.56 7.58 7.6 7.62 7.65 7.68 7.71 7.74 7.77 7.8 7.83 7.86 7.89 7.92 7.96 8 8.04 8.08 8.12 8.17 8.22 8.27 8.32 8.38 8.44 8.5 8.56 8.64 8.71 8.78 8.86 8.94

Note: Tensile_test/steel_data_unload_sig.txt
6.61 6.36 6.11 5.86 5.61 5.36 5.11 4.86 4.61 4.36 4.11 3.86 3.61 3.36 3.11 2.86 2.61 2.36 2.11 1.86 1.61 1.36 1.11 0.86 0.61 0.36 0.11 0

Note: README.md
# Mechanics Apps
Webbased visualization for mechanics content via Bokeh
This Repository contains different prototypes for WebApps for the visualization of mechanics example for the lectures of the Chair of Strcutrual Mechnaics, Prof. Mï¿½ller, TUM (Technische Universitï¿½t Mï¿½nchen).

## Server Architecture

We provide access to the apps through a bokeh server in directory format (see http://bokeh.pydata.org/en/latest/docs/user_guide/server.html#directory-format). Our overview website is hosted by a nginx server which forwards requests to the bokeh server.

The server can be run in two modes:

* online mode: provide access to apps through the internet.
* offline mode: run the server locally and present apps to
lecture audience.

### Server Setup

1. install Anaconda with python version 2.7: https://www.continuum.io/downloads
2. install additional python packages (bokeh, nodejs, flexx, twisted) by running ```$ ./installer.sh```
3. configure the server with ```server.conf```. If you want to run the server locally, just use the existing configuration.
4. run ```$ ./serverrunner.sh```. If you want to use port 80 run it as sudo.
    * Under Linux and MacOS you can natively execute ```.sh``` scripts from the terminal.
    * If you have problems executing ```.sh``` under windows, install Git (https://git-for-windows.github.io/) or Cygwin (http://www.cygwin.com/).
5. run ```$ ./bokehrunner.sh```.
6. access ```127.0.0.1``` in your browser

### Server Login

1. Access the VPN network of LRZ: see https://www.lrz.de/services/netz/mobil/vpn_en/
    * install Cisco AnyConnect (easy on Windows, more complicated for other OS)
https://www.lrz.de/services/netz/mobil/vpn_en/anyconnect_en/
    * log on to
https://asa-cluster.lrz.de with your credentials: max.mustermann(at)tum.de
2. connect to the VM
    * install PuTTY http://www.putty.org/
    * connect to the VM via PuTTY.

## ToDos
### Selected Apps

#### Technical mechanics I (jf):
- [x] 1) Tensile testing/Zugversuch (eb)
- [x] 2) Transverse strain/Querdehnung (eb)
- [ ] 3) Doble-supported beam with point load/Balken (ad)
- [ ] 4) Maxwell's reciprocity theorem/Reziprozitätssatz von Maxwell (ad)
- [ ] 5) Buckling/Knickung (ad)
- [ ] 6) Seilbahn/Funicular (br)
- [ ] 7) Polares Flächenträgheitmoments/Polar moment of inertia ()
- [ ] 8) Zusammenges. Flächenträgheitmoments/ Combined moment of inertia ()
- [ ] 9) Zusammenges. Schwerpunktsmoment/Combined center of mass moment

#### Supplementary course/Ergï¿½nzungskurs Technical mechanics (ft):
- [ ] 1) Spring pendulum/Federpendel (eb)
- [ ] 2) Pendulum/Schwerependel (eb)
- [ ] 3) Base-excited oscillator/Fusspunkterregter Schwinger (eb)
- [ ] 4) Tuned mass damper/Schwingungstilger (eb)
- [ ] 5) Instant centre of rotation/Momentanpol der Leiter (Leiter) (ak)
- [x] 6) Coriolis force/Drehscheibe-Corioliskraft (eb)
- [ ] 7) Boat with three swimmers/Boot mit drei Schwimmern (ma)
- [ ] 8) Collision/Stoss (ma)
- [x] 

File: PlasticData.txt
10 0
10.1136 1
10.2273 2
10.3409 3
10.4545 4
10.5682 5
10.6818 6
10.7955 7
10.9091 8
11.0227 9
11.1364 10
11.25 11
11.3636 12
11.4773 13
11.5909 14
11.7045 15
11.8182 16
11.9318 17
12.0455 18
12.1591 19
12.2727 20
12.3864 21
12.5 22
12.6136 23
12.7273 24
12.8409 25
12.9545 26
13.0682 27
13.1818 28
13.2955 29
13.4091 30
13.5227 31
13.6364 32
13.75 33
13.8636 34
13.9773 35
14.0909 36
14.2045 37
14.3182 38
14.4318 39
14.5455 40
14.6591 41
14.7727 42
14.8864 43
15 44
16.1111 45
17.2222 46
18.3333 47
19.4444 48
20 48.5
20.5567 49
21.67 50
22.78 51
23.89 52
25 53
26.665 54
28.33 55
30 56
31.6667 57
33.3333 58
35 59
37 60
39 61
40 61.5
41 62
43 63
45 64
47 65
49 66
50 66.5
51.25 67
53.75 68
55 68.5
56 69
58 70
60 71
62.5 72
65 73
67 74
69 75
70 75.5
71 76
73 77
75 78
76.25 79
77.5 80
78.75 81
80 82
81.25 83
82.5 84
83.75 85
85 86
85.8325 87
86.665 88
87.4975 89
88.33 90
89.165 91
90 92
90.8333 93
91.6667 94
92.5 95
93.3333 96
94.1667 97
95 98
95.665 99
96.33 100
96.998 101
97.666 102
98 102.5

File: rubber_data_sig.txt
0
0.07
0.14
0.21
0.28
0.35
0.42
0.49
0.56
0.62
0.68
0.74
0.8
0.85
0.9
0.95
1
1.05
1.1
1.14
1.18
1.22
1.26
1.3
1.34
1.38
1.42
1.45
1.48
1.51
1.54
1.57
1.6
1.62
1.64
1.66
1.68
1.7
1.72
1.74
1.76
1.78
1.8
1.82
1.84
1.86
1.88
1.9
1.915
1.93
1.945
1.96
1.975
1.99
2.005
2.02
2.035
2.05
2.065
2.08
2.09
2.1
2.11
2.12
2.13
2.14
2.15
2.16
2.17
2.18
2.19
2.2
2.21
2.22
2.23
2.24
2.25
2.26
2.27
2.28
2.29
2.3
2.31
2.32
2.33
2.34
2.35
2.358
2.366
2.374
2.382
2.39
2.398
2.406
2.414
2.422
2.43
2.438
2.446
2.454
2.462
2.47
2.478
2.486
2.494
2.502
2.51
2.518
2.526
2.534
2.542
2.55
2.558
2.566
2.574
2.582
2.59
2.6
2.61
2.62
2.63
2.64
2.65
2.66
2.67
2.68
2.69
2.7
2.715
2.73
2.745
2.76
2.775
2.79
2.81
2.83
2.85
2.87
2.89
2.91
2.93
2.95
2.98
3.01
3.04
3.07
3.1
3.14
3.18
3.22
3.26
3.3
3.35
3.4
3.45
3.5
3.56
3.62
3.68
3.75
3.82

File: steel_data_sig.txt
0
0.25
0.5
0.75
1
1.25
1.5
1.75
2
2.25
2.5
2.75
3
3.25
3.5
3.75
4
4.25
4.5
4.75
5
4.75
4.5
4.75
4.5
4.75
4.5
4.75
4.5
4.75
4.5
4.65
4.8
4.95
5.08
5.21
5.33
5.44
5.55
5.66
5.75
5.84
5.93
6.01
6.08
6.15
6.22
6.28
6.33
6.38
6.43
6.47
6.51
6.55
6.58
6.61
6.64
6.67
6.7
6.73
6.76
6.79
6.81
6.83
6.85
6.87
6.89
6.91
6.93
6.94
6.96
6.97
6.98
6.99
6.998
7
6.998
6.99
6.985
6.98
6.97
6.96
6.95
6.94
6.93
6.92
6.9
6.88
6.86
6.84
6.82
6.8
6.78
6.76
6.73
6.7
6.67
6.64
6.61
6.58
6.55
6.52
6.49
6.46
6.43
6.39
6.35
6.31
6.27
6.23
6.19
6.15
6.11
6.07
6.02
5.97
5.92
5.87
5.82
5.77
5.72
5.66
5.6
5.54
5.48
5.42
5.35
5.28
5.21
5.14
5.07

File: steel_data_true_sig.txt
0
0.25
0.5
0.75
1
1.25
1.5
1.75
2
2.25
2.5
2.75
3
3.25
3.5
3.75
4
4.25
4.5
4.75
5
4.75
4.5
4.75
4.5
4.75
4.5
4.75
4.5
4.75
4.5
4.65
4.8
4.95
5.08
5.21
5.33
5.44
5.55
5.66
5.75
5.84
5.94
6.02
6.095
6.17
6.24
6.31
6.36
6.42
6.47
6.52
6.57
6.62
6.67
6.71
6.74
6.78
6.82
6.85
6.88
6.91
6.94
6.97
7
7.03
7.06
7.09
7.12
7.15
7.17
7.19
7.21
7.23
7.25
7.27
7.29
7.31
7.32
7.33
7.34
7.35
7.36
7.37
7.38
7.39
7.4
7.41
7.415
7.42
7.425
7.43
7.445
7.46
7.475
7.48
7.5
7.52
7.54
7.56
7.58
7.6
7.62
7.65
7.68
7.71
7.74
7.77
7.8
7.83
7.86
7.89
7.92
7.96
8
8.04
8.08
8.12
8.17
8.22
8.27
8.32
8.38
8.44
8.5
8.56
8.64
8.71
8.78
8.86
8.94